Folder: Python-Utilities/FrgTools/Example Notebooks/Cyclic Voltammetry Analysis/Data

Note: README.md
# Python-Utilities
Python modules for general FRG use

# Installation Instructions
The following instructions assume that python 3.x and pip are already installed.
  - Open a terminal/command prompt window
    - note: if using Anaconda, use the Anaconda prompt, not OS prompt!
  - run `pip install 'git+https://github.com/fenning-research-group/Python-Utilities.git#egg=frgtools&subdirectory=FrgTools'`
  
 If you have previously installed frgtools and are looking to upgrade to a more recent version, run `pip install 'git+https://github.com/fenning-research-group/Python-Utilities.git#egg=frgtools&subdirectory=FrgTools' --upgrade`


If you want to fork FrgTools and install your forked repo on your virtual environment (to make mini changes without pull requesting to the original every time), run `pip install 'git+https://github.com/TalaSidawi/Python-Utilities.git@master#egg=frgtools&subdirectory=FrgTools'`

File: 180_11.4_FTO_02_CV_C02.txt
EC-Lab ASCII FILE
Nb header lines : 54

Cyclic Voltammetry

Run on channel : 2 (SN 2827)
User :
Electrode connection : standard
Ewe ctrl range : min = -2.50 V, max = 2.50 V
Ewe,I filtering : 50 kHz
Channel : Floating
Acquisition started on : 09/05/2019 17:27:53
Saved on :
	File : 180_11.4_FTO_02_CV_C02.mpr
	Directory : C:\Data\Justin\09_04_2019_pvd_SnOxCV\
	Host : 192.109.209.127
Device : VSP-300 (SN 0229)
Address : 192.109.209.128
EC-Lab for windows v10.40 (software)
Internet server v10.40 (firmware)
Command interpretor v10.40 (firmware)
Electrode material :
Initial state :
Electrolyte :
Comments :
Cable : standard
Reference electrode : SCE Saturated Calomel Electrode (0.241 V)
Electrode surface area : 0.001 cm²
Characteristic mass : 0.001 g
Equivalent Weight : 0.000 g/eq.
Density : 0.000 g/cm3
Ei (V)              0.000
vs.                 Eoc
dE/dt               20.000
dE/dt unit          mV/s
E1 (V)              1.500
vs.                 Ref
Step percent        50
N                   10
E range min (V)     -2.500
E range max (V)     2.500
I Range             Auto
I Range min         Unset
I Range max         Unset
I Range init        Unset
Bandwidth           8
E2 (V)              -0.600
vs.                 Ref
nc cycles           3
Reverse Scan        1
Ef (V)              0.000
vs.                 Eoc

mode	ox/red	error	control changes	counter inc.	time/s	control/V	Ewe/V	<I>/mA	cycle number	(Q-Qo)/C	Rcmp/Ohm	P/W
2	1	0	0	0	3.6376	0.192089	0.19222	-0.000626125	1	0	22.8278	1.20353e-07
2	1	0	1	0	10.5651	0.330639	0.330923	0.000695471	1	2.27999e-06	22.8278	2.30147e-07
2	1	0	1	0	17.5151	0.469639	0.469986	0.00209048	1	1.16382e-05	22.8278	9.82499e-07
2	1	0	1	0	24.4651	0.608639	0.609053	0.00456502	1	3.42038e-05	22.8278	2.78034e-06
2	1	0	1	0	31.4151	0.747639	0.748123	0.00796182	1	7.7683e-05	22.8278	5.95642e-06
2	1	0	0	0	38.4001	0.887339	0.887611	0.0112801	1	0.000145625	22.8278	1.00123e-05
2	1	0	0	0	45.3505	1.02635	1.02669	0.0134849	1	0.000232714	22.8278	1.38448e-05
2	1	0	1	0	52.3048	1.16543	1.16589	0.0150118	1	0.000332321	22.8278	1.7502e-05
2	1	0	1	0	59.2443	1.30422	1.3047	0.0164716	1	0.000441819	22.8278	2.14905e-05
2	1	0	1	0	66.1939	1.44322	1.44358	0.0183979	1	0.000562553	22.8278	2.65589e-05
2	0	0	0	0	73.0133	1.42044	1.42084	0.0111007	1	0.000675216	22.8278	1.57723e-05
2	0	0	0	0	79.9633	1.28144	1.28183	0.00588249	1	0.000730925	22.8278	7.54034e-06
2	0	0	1	0	86.9483	1.14174	1.14243	0.00357184	1	0.00076288	22.8278	4.08056e-06
2	0	0	1	0	93.8983	1.00274	1.00316	0.00228822	1	0.000782734	22.8278	2.29546e-06
2	0	0	1	0	100.8483	0.863735	0.864085	0.0014469	1	0.00079536	22.8278	1.25024e-06
2	0	0	1	0	107.7983	0.724736	0.725089	0.000842863	1	0.000803017	22.8278	6.11151e-07
2	0	0	1	0	114.7483	0.585736	0.586155	0.000438866	1	0.000807185	22.8278	2.57244e-07
2	0	0	0	0	121.7333	0.446036	0.446307	0.000139626	1	0.000809032	22.8278	6.23159e-08
2	0	0	0	0	128.6833	0.307036	0.307298	-7.07124e-05	1	0.000809223	22.8278	2.17298e-08
2	0	0	0	0	135.6333	0.168036	0.168307	-0.00029307	1	0.000807909	22.8278	4.93257e-08
2	0	0	0	0	142.5833	0.0290357	0.0294169	-0.000687635	1	0.000804709	22.8278	2.02281e-08
2	0	0	1	0	149.5683	-0.110664	-0.11009	-0.00204537	1	0.000796074	22.8278	2.25176e-07
2	0	0	1	0	156.5183	-0.249664	-0.249117	-0.0092192	1	0.000763457	22.8278	2.29666e-06
2	0	0	0	0	163.5033	-0.389364	-0.389059	-0.0372559	1	0.000612515	22.8278	1.44948e-05
2	0	0	0	0	170.4533	-0.528364	-0.528004	-0.0501077	1	0.000289765	22.8278	2.64571e-05
2	1	0	1	1	177.3107	-0.534501	-0.534159	-0.0225499	1	1.41507e-05	22.8278	1.20452e-05
2	1	0	0	1	184.2957	-0.394801	-0.394265	-0.00372267	1	-6.49073e-05	22.8278	1.46772e-06
2	1	0	0	1	191.2457	-0.255801	-0.255339	-0.000513519	1	-7.50996e-05	22.8278	1.31121e-07
2	1	0	1	1	198.2307	-0.116101	-0.115631	-1.91806e-05	1	-7.64913e-05	22.8278	2.21788e-09
2	1	0	1	1	205.1807	0.0228995	0.0233184	0.000206277	1	-7.57571e-05	22.8278	4.81006e-09
2	1	0	1	1	212.1307	0.161899	0.162327	0.000398202	1	-7.36001e-05	22.8278	6.46391e-08
2	1	0	1	1	218.9907	0.299099	0.299744	0.000588643	2	-7.02177e-05	22.8278	1.764421E-007
2	1	0	1	1	225.9407	0.438099	0.438418	0.000869192	2	-6.51885e-05	22.8278	3.81069e-07
2	1	0	0	1	232.9257	0.577799	0.578187	0.00130036	2	-5.76203e-05	22.8278	7.5185e-07
2	1	0	0	1	239.8757	0.716799	0.717167	0.00196856	2	-4.61861e-05	22.8278	1.41178e-06
2	1	0	0	1	246.8257	0.855799	0.856061	0.00288332	2	-2.93131e-05	22.8278	2.4683e-06
2	1	0	0	1	253.7757	0.994799	0.995263	0.00410483	2	-5.0755e-06	22.8278	4.08539e-06
2	1	0	1	1	260.7300	1.13388	1.13423	0.00565858	2	2.88439e-05	22.8278	6.41811e-06
2	1	0	0	1	267.6826	1.27294	1.2732	0.00763183	2	7.4931e-05	22.8278	9.7168e-06
2	1	0	1	1	274.6719	1.41272	1.41301	0.0105307	2	0.000137651	22.8278	1.488e-05
2	0	0	1	1	281.5159	1.45038	1.45079	0.00947899	2	0.000218781	22.8278	1.3752e-05
2	0	0	1	1	288.4659	1.31138	1.31162	0.00488037	2	0.000265408	22.8278	6.40117e-06
2	0	0	0	1	295.4509	1.17168	1.17222	0.00298627	2	0.000291892	22.8278	3.50055e-06
2	0	0	0	1	302.4009	1.03268	1.03287	0.0019163	2	0.000308509	22.8278	1.97929e-06
2	0	0	0	1	309.3509	0.893679	0.894096	0.00120365	2	0.000319051	22.8278	1.07618e-06
2	0	0	0	1	316.3009	0.75468	0.755059	0.000720087	2	0.00032548	22.8278	5.43709e-07
2	0	0	0	1	323.2509	0.61568	0.616037	0.000389139	2	0.000329086	22.8278	2.39724e-07
2	0	0	0	1	330.2009	0.47668	0.477013	0.000157166	2	0.000330758	22.8278	7.497e-08
2	0	0	1	1	337.1859	0.33698	0.337207	-3.8862e-05	2	0.000331054	22.8278	1.31046e-08
2	0	0	1	1	344.1359	0.19798	0.19838	-0.000225823	2	0.000330092	22.8278	4.47989e-08
2	0	0	1	1	351.0859	0.0589797	0.0593655	-0.000488232	2	0.000327706	22.8278	2.89841e-08
2	0	0	0	1	358.0709	-0.0807203	-0.0802754	-0.00143637	2	0.000321678	22.8278	1.15305e-07
2	0	0	0	1	365.0209	-0.21972	-0.21943	-0.00723687	2	0.000296825	22.8278	1.58798e-06
2	0	0	1	1	372.0059	-0.35942	-0.359222	-0.0308638	2	0.000175984	22.8278	1.1087e-05
2	0	0	1	1	378.9559	-0.49842	-0.497953	-0.0479894	2	-0.00012107	22.8278	2.38964e-05
2	1	0	1	0	385.8127	-0.564493	-0.564141	-0.0274525	2	-0.000408496	22.8278	1.54871e-05
2	1	0	1	0	392.7627	-0.425493	-0.424968	-0.00634351	2	-0.000515989	22.8278	2.69579e-06
2	1	0	0	0	399.7477	-0.285793	-0.285388	-0.000727787	2	-0.000533945	22.8278	2.07702e-07
2	1	0	1	0	406.7327	-0.146093	-0.145661	-1.52236e-05	2	-0.000535697	22.8278	2.21749e-09
2	1	0	1	0	413.6827	-0.00709254	-0.00678403	0.000194982	2	-0.000534977	22.8278	1.32276e-09
2	1	0	1	0	420.6327	0.131907	0.132241	0.000331864	2	-0.000533075	22.8278	4.38861e-08
2	1	0	1	0	427.5827	0.270907	0.271224	0.000444393	3	-0.000530354	22.8278	1.2053e-07
2	1	0	1	0	434.5327	0.409907	0.410257	0.000623455	3	-0.000526638	22.8278	2.55777e-07
2	1	0	1	0	441.4827	0.548907	0.549258	0.000915743	3	-0.000521322	22.8278	5.02979e-07
2	1	0	0	0	448.4677	0.688607	0.688881	0.00134145	3	-0.000513403	22.8278	9.24101e-07
2	1	0	0	0	455.4177	0.827607	0.828069	0.00191605	3	-0.000502007	22.8278	1.58662e-06
2	1	0	0	0	462.3677	0.966607	0.967256	0.00269986	3	-0.000485952	22.8278	2.61146e-06
2	1	0	1	0	469.3200	1.10565	1.10589	0.00376756	3	-0.000463521	22.8278	4.16651e-06
2	1	0	1	0	476.2691	1.24463	1.24497	0.0052384	3	-0.00043232	22.8278	6.52164e-06
2	1	0	1	0	483.2255	1.38376	1.38408	0.00745458	3	-0.000388811	22.8278	1.03177e-05
2	0	0	1	0	490.1175	1.47845	1.47873	0.00952431	3	-0.000323491	22.8278	1.40839e-05
2	0	0	0	0	497.1025	1.33875	1.3391	0.00429219	3	-0.00027988	22.8278	5.74767e-06
2	0	0	0	0	504.0525	1.19975	1.20005	0.00258843	3	-0.000256849	22.8278	3.10625e-06
2	0	0	0	0	511.0025	1.06075	1.06108	0.00164783	3	-0.000242517	22.8278	1.74848e-06
2	0	0	0	0	517.9525	0.921751	0.922094	0.00104629	3	-0.000233443	22.8278	9.64774e-07
2	0	0	0	0	524.9025	0.782751	0.783186	0.000635947	3	-0.000227827	22.8278	4.98065e-07
2	0	0	0	0	531.8525	0.643752	0.644331	0.00035302	3	-0.000224608	22.8278	2.27462e-07
2	0	0	0	0	538.8025	0.504752	0.505029	0.000146452	3	-0.000223091	22.8278	7.39627e-08
2	0	0	0	0	545.7525	0.365752	0.366037	-1.1985e-06	3	-0.000222789	22.8278	4.38695e-10
2	0	0	0	0	552.7025	0.226752	0.227153	-0.000159867	3	-0.000223541	22.8278	3.63143e-08
2	0	0	1	0	559.6875	0.0870517	0.0873494	-0.000395425	3	-0.000225518	22.8278	3.45401e-08
2	0	0	0	0	566.6725	-0.0526483	-0.0522619	-0.00111641	3	-0.000230295	22.8278	5.83457e-08
2	0	0	0	0	573.6225	-0.191648	-0.19123	-0.00601764	3	-0.000250376	22.8278	1.15075e-06
2	0	0	1	0	580.6075	-0.331348	-0.331002	-0.02838	3	-0.000357348	22.8278	9.39384e-06
2	0	0	1	0	587.5575	-0.470348	-0.469847	-0.0475102	3	-0.000642816	22.8278	2.23225e-05
2	1	0	1	1	594.4163	-0.592445	-0.591942	-0.0344513	3	-0.000942796	22.8278	2.03932e-05
2	1	0	1	1	601.3663	-0.453445	-0.452971	-0.0105639	3	-0.00108584	22.8278	4.78513e-06
2	1	0	0	1	608.3513	-0.313745	-0.313334	-0.0013768	3	-0.00111905	22.8278	4.31397e-07
2	1	0	0	1	615.3013	-0.174745	-0.174418	-8.262e-05	3	-0.00112229	22.8278	1.44104e-08
2	1	0	1	1	622.2863	-0.0350445	-0.0347124	0.000184611	3	-0.00112164	22.8278	6.40829e-09
2	1	0	1	1	629.2363	0.103955	0.104406	0.000295461	3	-0.00111991	22.8278	3.08479e-08
2	1	0	1	1	636.1863	0.242955	0.243447	0.000484329	4	-0.00111751	22.8278	1.17908e-07
2	1	0	0	1	643.1713	0.382655	0.382971	0.000901823	4	-0.00111217	22.8278	3.45372e-07
2	1	0	0	1	650.1213	0.521655	0.52177	0.00076926	4	-0.00110739	22.8278	4.01377e-07
2	1	0	0	1	657.0713	0.660655	0.660953	0.00108283	4	-0.00110081	22.8278	7.157e-07
2	1	0	0	1	664.0213	0.799655	0.800073	0.00157865	4	-0.00109147	22.8278	1.26303e-06
2	1	0	0	1	670.9713	0.938655	0.93908	0.00219504	4	-0.0010783	22.8278	2.06132e-06
2	1	0	1	1	677.9227	1.07768	1.0781	0.0030353	4	-0.00106013	22.8278	3.27235e-06
2	1	0	0	1	684.8741	1.21671	1.21715	0.00421249	4	-0.00103501	22.8278	5.12722e-06
2	1	0	0	1	691.8302	1.35583	1.35632	0.00597551	4	-0.000999938	22.8278	8.10472e-06
2	1	0	1	1	698.8204	1.49564	1.49598	0.0106062	4	-0.00094551	22.8278	1.58667e-05
2	0	0	0	1	705.7533	1.36572	1.366	0.0042795	4	-0.00089925	22.8278	5.84579e-06
2	0	0	0	1	712.7033	1.22672	1.22702	0.00252853	4	-0.000876598	22.8278	3.10255e-06
2	0	0	0	1	719.6533	1.08772	1.08821	0.00164206	4	-0.000862501	22.8278	1.7869e-06
2	0	0	0	1	726.6033	0.948715	0.948979	0.00106466	4	-0.000853381	22.8278	1.01034e-06
2	0	0	0	1	733.5533	0.809716	0.810197	0.000678599	4	-0.000847525	22.8278	5.49799e-07
2	0	0	0	1	740.5033	0.670716	0.671114	0.000388878	4	-0.000844028	22.8278	2.60981e-07
2	0	0	0	1	747.4533	0.531716	0.532057	0.000186737	4	-0.000842228	22.8278	9.93547e-08
2	0	0	0	1	754.4033	0.392716	0.393048	4.0281e-05	4	-0.000841618	22.8278	1.58324e-08
2	0	0	0	1	761.3533	0.253716	0.25406	-0.000102178	4	-0.000842031	22.8278	2.59594e-08
2	0	0	1	1	768.3383	0.114016	0.114438	-0.000305464	4	-0.0008435325	22.8278	3.49566e-08
2	0	0	1	1	775.2883	-0.0249843	-0.0248756	-0.000907742	4	-0.00084724	22.8278	2.25806e-08
2	0	0	0	1	782.2733	-0.164684	-0.16416	-0.00503282	4	-0.000863672	22.8278	8.26187e-07
2	0	0	1	1	789.2583	-0.304384	-0.303955	-0.025749	4	-0.000958075	22.8278	7.82656e-06
2	0	0	1	1	796.2083	-0.443384	-0.442844	-0.0460947	4	-0.00122805	22.8278	2.041279E-005
2	0	0	1	1	803.1563	-0.582341	-0.5819	-0.0382932	4	-0.00152613	22.8278	2.22828e-05
2	1	0	0	0	809.9693	-0.481389	-0.48105	-0.0148832	4	-0.00169746	22.8278	7.15956e-06
2	1	0	1	0	816.9543	-0.341689	-0.341378	-0.00269905	4	-0.00175139	22.8278	9.21397e-07
2	1	0	1	0	823.9043	-0.202689	-0.202253	-0.000186328	4	-0.0017581	22.8278	3.768535E-008
2	1	0	0	0	830.8893	-0.0629885	-0.0625634	0.000196154	4	-0.00175767	22.8278	1.22721e-08
2	1	0	0	0	837.8393	0.0760114	0.0764265	0.000314491	4	-0.0017558	22.8278	2.40355e-08
2	1	0	0	0	843.6068	0.191361	0.192397	0.000404461	4	-0.00175376	22.8278	7.78171e-08